{
  "resourceType": "Bundle",
  "id": "diagnostic-report-bundle",
  "type": "collection",
  "entry": [
    {
      "fullUrl": "urn:uuid:b0a4b18e-94e7-4b1b-8031-c7ae4bdd8db9",
      "resource": {
        "resourceType": "DiagnosticReport",
        "basedOn": [
          {
            "reference": "ServiceRequest/99e8cb58-3d40-4d41-99b0-20449df8edac"
          }
        ],
        "status": "final",
        "category": [
          {
            "coding": [
              {
                "system": "http://terminology.hl7.org/CodeSystem/v2-0074",
                "code": "LAB"
              }
            ]
          }
        ],
        "code": {
          "coding": [
            {
              "code": "1019AAAAAAAAAAAAAAAAAAAAAAAAAAAAAAAA",
              "display": "Complete blood count"
            },
            {
              "system": "http://loinc.org",
              "code": "13303-3",
              "display": "HLA-A+​B+​C (class I) [Type]"
            }
          ]
        },
        "subject": {
          "reference": "Patient/fa2a71fd-895d-428f-8245-dcb4f0664b60",
          "display": "Mary Chalmers"
        },
        "encounter": {
          "reference": "Encounter/81db700c-93f5-4b04-b9ae-d162a775da84"
        },
        "effectiveDateTime": "2016-12-15",
        "issued": "2016-12-15T14:15:30-06:00",
        "performer": [
          {
            "reference": "Organization/68",
            "display": "aTypingLab Inc"
          }
        ],
        "result": [
          {
            "reference": "urn:uuid:49a86246-4004-42eb-9bdc-f542f93f9228",
            "display": "HLA-A: HLA-A:01:01G+HLA-A*01:02"
          },
          {
            "reference": "urn:uuid:60613a43-c4cb-4502-b3e2-cf9215feaa70",
            "display": "HLA-B: HLA-B*15:01:01G+HLA-B*57:01:01G"
          }
        ]
      }
    },
    {
      "fullUrl": "urn:uuid:49a86246-4004-42eb-9bdc-f542f93f9228",
      "resource": {
        "resourceType": "Observation",
        "id": "49a86246-4004-42eb-9bdc-f542f93f9228",
        "status": "final",
        "code": {
          "coding": [
            {
              "code": "21AAAAAAAAAAAAAAAAAAAAAAAAAAAAAAAAAA",
              "display": "Hemoglobin [Mass/volume] in Blood"
            }
          ],
          "text": "Haemoglobin"
        },
        "subject": {
          "reference": "Patient/fa2a71fd-895d-428f-8245-dcb4f0664b60"
        },
        "valueQuantity": {
          "value": 176,
          "unit": "g/L",
          "system": "http://unitsofmeasure.org",
          "code": "g/L"
        },
        "referenceRange": [
          {
            "low": {
              "value": 10.4,
              "unit": "g/L",
              "system": "http://unitsofmeasure.org",
              "code": "g/L"
            },
            "high": {
              "value": 17.8,
              "unit": "g/L",
              "system": "http://unitsofmeasure.org",
              "code": "g/L"
            }
          }
        ]
      }
    },
    {
      "fullUrl": "urn:uuid:60613a43-c4cb-4502-b3e2-cf9215feaa70",
      "resource": {
        "resourceType": "Observation",
        "id": "60613a43-c4cb-4502-b3e2-cf9215feaa70",
        "status": "final",
        "code": {
          "coding": [
            {
              "code": "679AAAAAAAAAAAAAAAAAAAAAAAAAAAAAAAAA",
              "display": "Red blood cells"
            }
          ],
          "text": "Red blood cells"
        },
        "subject": {
          "reference": "Patient/fa2a71fd-895d-428f-8245-dcb4f0664b60"
        },
        "valueQuantity": {
          "value": 5.9,
          "unit": "x10*12/L",
          "system": "http://unitsofmeasure.org",
          "code": "10*12/L"
        },
        "referenceRange": [
          {
            "low": {
              "value": 4.0,
              "unit": "x10*12/L",
              "system": "http://unitsofmeasure.org",
              "code": "10*12/L"
            },
            "high": {
              "value": 6.1,
              "unit": "x10*12/L",
              "system": "http://unitsofmeasure.org",
              "code": "10*12/L"
            }
          }
        ]
      }
    }
  ]
}